Folder: SZO/analysis/ellipsometry/SiO2_thickness_profile

Note: README.md
<h1>Work on Si doped ZnO, 2013-2014</h2>

The following work on Silicon doped ZnO was undertaken at University of Liverpool, Stephenson Institute for Renewable Energy.

The resultant paper can be found at <a href="http://dx.doi.org/10.1063/1.4863875">http://dx.doi.org/10.1063/1.4863875</a>

File: SiO2_wt.txt
-4 -4 0.154393
-4 -3.5 0.165399
-4 -3 0.176486
-4 -2.5 0.183959
-4 -2 0.203834
-4 -1.5 0.252534
-4 -1 0.31087
-4 -0.5 0.354693
-4 -0.000000000000000000e+00 0.397524
-4 0.5 0.458679
-4 1 0.518415
-4 1.5 0.567684
-4 2 0.649213
-4 2.5 0.769958
-4 3 0.901374
-4 3.5 1.06508
-4 4 1.26151
-3.5 -4 0.178658
-3.5 -3.5 0.200826
-3.5 -3 0.217437
-3.5 -2.5 0.237986
-3.5 -2 0.264317
-3.5 -1.5 0.304473
-3.5 -1 0.354918
-3.5 -0.5 0.411139
-3.5 -0.000000000000000000e+00 0.460117
-3.5 0.5 0.519567
-3.5 1 0.567829
-3.5 1.5 0.642279
-3.5 2 0.74489
-3.5 2.5 0.889848
-3.5 3 1.03683
-3.5 3.5 1.24933
-3.5 4 1.52555
-3 -4 0.21088
-3 -3.5 0.240921
-3 -3 0.266142
-3 -2.5 0.289235
-3 -2 0.320868
-3 -1.5 0.351898
-3 -1 0.410527
-3 -0.5 0.464095
-3 -0.000000000000000000e+00 0.522655
-3 0.5 0.577027
-3 1 0.625638
-3 1.5 0.719217
-3 2 0.860874
-3 2.5 1.01734
-3 3 1.2159
-3 3.5 1.4714
-3 4 1.79883
-2.5 -4 0.246221
-2.5 -3.5 0.285856
-2.5 -3 0.314312
-2.5 -2.5 0.337299
-2.5 -2 0.371601
-2.5 -1.5 0.414263
-2.5 -1 0.479273
-2.5 -0.5 0.536371
-2.5 -0.000000000000000000e+00 0.572454
-2.5 0.5 0.625456
-2.5 1 0.699814
-2.5 1.5 0.827656
-2.5 2 1.00704
-2.5 2.5 1.20357
-2.5 3 1.45121
-2.5 3.5 1.75572
-2.5 4 2.08018
-2 -4 0.28201
-2 -3.5 0.326484
-2 -3 0.361335
-2 -2.5 0.386224
-2 -2 0.426927
-2 -1.5 0.48373
-2 -1 0.554527
-2 -0.5 0.601798
-2 -0.000000000000000000e+00 0.637088
-2 0.5 0.697928
-2 1 0.800874
-2 1.5 0.957875
-2 2 1.16835
-2 2.5 1.41345
-2 3 1.73608
-2 3.5 2.07044
-2 4 2.39964
-1.5 -4 0.33191
-1.5 -3.5 0.376499
-1.5 -3 0.421229
-1.5 -2.5 0.446418
-1.5 -2 0.498506
-1.5 -1.5 0.553074
-1.5 -1 0.625264
-1.5 -0.5 0.663027
-1.5 -0.000000000000000000e+00 0.713888
-1.5 0.5 0.799148
-1.5 1 0.933075
-1.5 1.5 1.13713
-1.5 2 1.38468
-1.5 2.5 1.6866
-1.5 3 2.05347
-1.5 3.5 2.41997
-1.5 4 2.74548
-1 -4 0.400772
-1 -3.5 0.437769
-1 -3 0.480269
-1 -2.5 0.519634
-1 -2 0.576525
-1 -1.5 0.630126
-1 -1 0.69626
-1 -0.5 0.751443
-1 -0.000000000000000000e+00 0.828005
-1 0.5 0.941686
-1 1 1.11149
-1 1.5 1.35499
-1 2 1.68205
-1 2.5 2.04014
-1 3 2.46358
-1 3.5 2.82967
-1 4 3.15629
-0.5 -4 0.480352
-0.5 -3.5 0.510675
-0.5 -3 0.566203
-0.5 -2.5 0.611488
-0.5 -2 0.668566
-0.5 -1.5 0.714252
-0.5 -1 0.781418
-0.5 -0.5 0.870485
-0.5 -0.000000000000000000e+00 0.998965
-0.5 0.5 1.1608
-0.5 1 1.3755
-0.5 1.5 1.67909
-0.5 2 2.04472
-0.5 2.5 2.47544
-0.5 3 2.92991
-0.5 3.5 3.34033
-0.5 4 3.84593
0.000000000000000000e+00 -4 0.580617
-0.000000000000000000e+00 -3.5 0.612889
0.000000000000000000e+00 -3 0.671303
-0.000000000000000000e+00 -2.5 0.715193
0.000000000000000000e+00 -2 0.774377
-0.000000000000000000e+00 -1.5 0.82939
0.000000000000000000e+00 -1 0.908709
-0.000000000000000000e+00 -0.5 1.04915
0.000000000000000000e+00 -0.000000000000000000e+00 1.23026
-0.000000000000000000e+00 0.5 1.43948
0.000000000000000000e+00 1 1.71968
-0.000000000000000000e+00 1.5 2.08271
0.000000000000000000e+00 2 2.52722
-0.000000000000000000e+00 2.5 2.98586
0.000000000000000000e+00 3 3.4605
-0.000000000000000000e+00 3.5 4.04961
0.000000000000000000e+00 4 4.75786
0.5 -4 0.666971
0.5 -3.5 0.714376
0.5 -3 0.775731
0.5 -2.5 0.827645
0.5 -2 0.897647
0.5 -1.5 0.972232
0.5 -1 1.09809
0.5 -0.5 1.25008
0.5 -0.000000000000000000e+00 1.50179
0.5 0.5 1.76573
0.5 1 2.16464
0.5 1.5 2.61866
0.5 2 3.10206
0.5 2.5 3.58994
0.5 3 4.1495
0.5 3.5 4.97309
0.5 4 5.89423
1 -4 0.772596
1 -3.5 0.821144
1 -3 0.883415
1 -2.5 0.942865
1 -2 1.04566
1 -1.5 1.17108
1 -1 1.34314
1 -0.5 1.54818
1 -0.000000000000000000e+00 1.82345
1 0.5 2.20714
1 1 2.69484
1 1.5 3.25223
1 2 3.76714
1 2.5 4.31396
1 3 5.04855
1 3.5 6.05437
1 4 7.25235
1.5 -4 0.904809
1.5 -3.5 0.966941
1.5 -3 1.0451
1.5 -2.5 1.13012
1.5 -2 1.26149
1.5 -1.5 1.41999
1.5 -1 1.65875
1.5 -0.5 1.90819
1.5 -0.000000000000000000e+00 2.31778
1.5 0.5 2.77357
1.5 1 3.34669
1.5 1.5 3.93213
1.5 2 4.59472
1.5 2.5 5.31694
1.5 3 6.24593
1.5 3.5 7.44359
1.5 4 8.79318
2 -4 1.09626
2 -3.5 1.14543
2 -3 1.24685
2 -2.5 1.37012
2 -2 1.53574
2 -1.5 1.74947
2 -1 2.11546
2 -0.5 2.38891
2 -0.000000000000000000e+00 2.92104
2 0.5 3.49833
2 1 4.11377
2 1.5 4.87182
2 2 5.63862
2 2.5 6.55189
2 3 7.63382
2 3.5 8.88547
2 4 10.5438
2.5 -4 1.31522
2.5 -3.5 1.37958
2.5 -3 1.52157
2.5 -2.5 1.66648
2.5 -2 1.92804
2.5 -1.5 2.16748
2.5 -1 2.66192
2.5 -0.5 3.16186
2.5 -0.000000000000000000e+00 3.76039
2.5 0.5 4.35642
2.5 1 5.15606
2.5 1.5 6.02047
2.5 2 6.91707
2.5 2.5 7.99416
2.5 3 9.34062
2.5 3.5 10.8119
2.5 4 12.6121
3 -4 1.61333
3 -3.5 1.67291
3 -3 1.87142
3 -2.5 1.99508
3 -2 2.37723
3 -1.5 2.82182
3 -1 3.39057
3 -0.5 4.01533
3 -0.000000000000000000e+00 4.71131
3 0.5 5.56404
3 1 6.44604
3 1.5 7.62531
3 2 8.59942
3 2.5 9.72923
3 3 11.3206
3 3.5 13.1016
3 4 15.0604
3.5 -4 1.981
3.5 -3.5 2.13128
3.5 -3 2.33086
3.5 -2.5 2.54935
3.5 -2 3.03039
3.5 -1.5 3.54092
3.5 -1 4.18563
3.5 -0.5 5.00721
3.5 -0.000000000000000000e+00 5.94464
3.5 0.5 6.98735
3.5 1 7.91787
3.5 1.5 9.08909
3.5 2 10.3497
3.5 2.5 11.6228
3.5 3 13.5087
3.5 3.5 15.3978
3.5 4 18.5997
4 -4 2.40304
4 -3.5 2.61689
4 -3 2.89243
4 -2.5 3.24644
4 -2 3.77141
4 -1.5 4.39624
4 -1 5.16231
4 -0.5 6.32143
4 -0.000000000000000000e+00 7.40783
4 0.5 8.56282
4 1 9.43702
4 1.5 10.7723
4 2 12.3469
4 2.5 13.8148
4 3 15.8667
4 3.5 18.8339
4 4 22.4332