Folder: SZO/analysis/ellipsometry/band_gap/I Mitrovic

Note: README.md
<h1>Work on Si doped ZnO, 2013-2014</h2>

The following work on Silicon doped ZnO was undertaken at University of Liverpool, Stephenson Institute for Renewable Energy.

The resultant paper can be found at <a href="http://dx.doi.org/10.1063/1.4863875">http://dx.doi.org/10.1063/1.4863875</a>

File: SiO2_reference.txt
Variable Angle Spectroscopic Ellipsometric (VASE) Data
Wavelength (nm)	Psi (65.00, 70.00, 75.00°)	Delta (65.00, 70.00, 75.00°)									Model
241.143	37.1475	110.128	37.3793	111.925	29.6182	162.698	30.0176	165.832	33.0691	250.918	33.6819	252.741
253.869	47.7733	212.785	48.158	211.453	48.097	91.7273	46.8949	90.6731	39.9792	66.9177	39.7107	69.4522
266.596	36.9517	138.587	37.296	140.708	34.7444	206.114	34.8214	209.097	40.7573	266.832	40.92	268.105
279.324	47.4243	220.187	47.5666	219.6	49.4595	104.175	48.3526	101.98	41.1745	68.0998	41.2004	69.6458
292.053	37.0891	119.527	37.3273	120.418	31.0326	165.315	30.9511	167.026	32.0033	246.942	31.9782	248.19
304.783	35.3425	228.635	35.1478	228.684	45.9701	253.031	46.5713	253.388	70.7896	125.57	69.7724	122.188
317.514	55.7609	136.782	55.2819	136.831	39.4453	85.086	39.5258	86.7179	31.7279	83.1155	32.0475	85.3265
330.245	32.7586	124.204	32.9968	125.35	24.7803	170.323	24.9155	171.142	26.5161	252.199	26.3159	252.497
342.977	31.732	215.593	31.2544	214.568	37.8992	260.153	38.0549	261.049	54.9726	267.625	55.1647	268.188
355.709	48.5684	232.188	48.4609	234.097	57.7836	117.283	58.0297	118.611	42.0247	67.2998	42.3102	67.8192
368.441	43.6398	107.735	43.0174	107.918	34.9703	98.494	34.8404	100.003	25.7637	110.793	25.755	113.593
381.173	30.5997	139.038	30.7484	138.906	23.4949	185.694	23.6193	186.87	26.3016	260.818	26.4523	260.167
393.905	27.8795	209.872	27.656	210.037	32.6888	260.235	32.5939	262.012	42.7277	-71.6391	42.7787	-70.678
406.636	36.775	250.638	36.2219	251.824	54.6921	257.098	55.4259	257.796	72.447	92.3531	72.3647	92.5587
419.368	64.6969	208.927	64.7899	209.955	50.2812	92.5163	50.1837	92.9328	37.6892	65.9653	37.7598	66.9267
432.098	42.1342	103.265	42.4407	104.487	31.2945	91.4608	31.4332	92.2918	22.4057	87.1799	22.7067	87.8798
444.828	28.8128	116.467	29.1795	117.045	19.0791	133.986	19.2002	133.704	7.608115	208.099	7.644115	204.786
457.557	22.0938	160.386	22.3934	159.522	17.395	218.119	17.1601	218.087	24.6944	-79.2645	24.505	-79.0863
470.285	22.9381	214.028	22.6883	213.096	27.5509	263.475	27.3898	264.412	37.3558	-65.2622	37.2298	-64.5045
483.012	29.4279	248.267	29.148	248.19	39.8138	-84.536	39.9335	-83.5691	59.6587	-68.9235	59.4213	-68.6634
495.737	41.4796	257.617	41.165	258.57	70.8714	254.353	71.2729	255.805	63.612	66.771	63.833	67.7905
508.461	70.4405	216.209	70.3989	219.03	55.2724	88.2206	55.2886	88.6119	40.0023	61.9525	40.1129	62.6332
521.184	51.4797	104.825	51.9436	106.024	35.9446	81.61	36.1739	82.3636	29.5679	66.4708	29.8067	67.2897
533.904	34.6248	99.9604	34.9824	100.789	26.1669	92.3909	26.4839	92.8641	18.2471	80.6621	18.7432	81.2324
546.623	26.5519	113.394	26.8724	113.799	17.5259	118.502	17.7685	118.205	4.349879	123.156	4.930596	120.247
559.34	21.0467	138.839	21.4004	138.785	11.8111	172.09	11.8316	171.36	11.3509	268.833	11.0096	268.314
572.055	18.5107	174.946	18.6166	173.885	15.1885	231.657	15.0389	231.957	22.7001	-73.0449	22.5168	-72.8066
584.767	19.7753	211.435	19.5851	210.269	22.6172	260.572	22.3866	261.43	31.2749	-64.3258	31.0869	-63.7281
597.477	23.7234	237.897	23.3895	237.421	29.9767	-85.5288	29.8188	-84.7533	39.5559	-61.3819	39.3448	-60.6301
610.184	29.1417	254.034	28.7741	254.05	38.6854	-81.1837	38.5406	-79.9091	53.0625	-62.3524	52.5993	-61.5757
622.889	36.589	261.146	36.2977	261.656	53.6303	-84.0864	53.4294	-82.6913	77.9303	-32.7013	77.3725	-34.4571
635.59	49.6685	258.492	49.245	259.647	82.9066	258.523	82.731	262.415	61.63	59.227	62.271	59.5232
648.289	73.0356	229.209	72.4519	231.879	63.4879	85.3446	63.6619	85.5233	45.2834	59.6	45.4834	60.376
660.985	66.5582	114.52	67.2209	116.033	45.1417	79.4036	45.1217	79.7262	36.7234	59.3722	36.9169	60.0624
673.677	46.927	98.0391	47.3812	98.8048	35.4658	79.1745	35.6001	79.5563	30.6918	61.8457	30.8315	62.5208
686.366	36.461	96.7341	36.7302	97.2964	29.0738	83.4251	29.2536	83.8318	24.6355	66.7621	24.9394	67.3031
699.051	30.0903	101.384	30.3596	101.815	23.5325	91.8072	23.8152	92.0556	17.9866	73.1478	18.3306	73.7649
711.733	25.3636	110.231	25.7855	110.645	18.2726	104.69	18.5484	104.812	10.3359	80.3972	10.7823	81.3809
724.41	21.7157	123.475	22.1238	123.337	13.3447	125.712	13.5653	124.865	2.150314	88.0053	2.619273	90.8099
737.084	18.9251	139.93	19.2226	139.912	9.922986	159.08	9.989619	158.48	5.747838	-83.9578	5.477619	-84.643
749.753	17.0493	161.083	17.2956	160.133	10.0543	203.484	9.898976	202.807	13.1229	-77.2029	12.8368	-77.0102
762.419	16.5188	183.52	16.638	182.451	13.1438	235.216	13.0617	235.248	19.3531	-70.8567	19.1364	-70.777
775.079	17.397	205.158	17.3048	203.938	17.4432	253.906	17.3046	254.102	24.6723	-65.7835	24.4227	-65.7839
787.736	19.2052	223.178	19.0173	222.197	21.848	265.436	21.6026	265.853	29.2937	-62.2781	28.9828	-62.0769
800.387	21.674	236.884	21.3994	236.568	25.9731	-86.9716	25.7581	-86.3735	33.4831	-60.0899	33.2389	-59.6716
813.034	24.5533	247.449	24.207	247.437	30.0268	-81.9702	29.9244	-81.3077	38.0695	-58.8253	37.7398	-58.5126
825.675	27.7426	255.055	27.389	255.361	34.6332	-79.1389	34.4706	-78.3976	43.5347	-58.9856	43.2372	-58.3406
838.311	31.3837	260.476	31.0843	260.75	40.3194	-78.4378	40.0025	-77.3502	51.217	-58.7026	50.7903	-58.2368
850.942	36.0336	263.478	35.6332	263.819	47.6915	-78.7573	47.4581	-77.8826	62.0429	-55.1217	61.5208	-54.8701
863.568	41.8976	263.815	41.6246	264.575	58.3144	-81.0209	58.1332	-79.4118	74.3311	-30.4458	74.0358	-32.6537
876.188	50.4207	261.391	49.9418	262.663	73.4559	-80.7954	73.0891	-79.7381	73.5523	32.7814	74.2918	31.296
888.803	61.9746	254.906	61.5587	256.391	87.5052	49.9067	87.5388	36.0919	62.1098	54.0069	62.5914	53.9622
901.411	76.2746	230.17	75.9671	234.608	70.7198	79.3932	71.0467	79.7902	52.3959	57.3889	52.6694	57.8054
914.013	78.3225	139.963	79.2788	140.665	57.6862	79.4205	57.7518	79.1201	45.7397	57.5904	45.7045	58.1219
926.61	65.4589	106.665	65.8629	107.141	48.5009	77.6867	48.471	77.7356	40.7258	57.413	40.7348	58.0004
939.2	54.1115	99.0802	54.3102	98.9173	42.2306	76.6827	41.9891	77.0166	37.1715	57.8891	36.9259	58.2143
951.784	45.4898	95.1734	45.9804	95.8111	37.0943	77.4815	37.2287	77.1994	33.5675	58.5078	33.7446	58.932
964.361	39.5975	94.8742	40.0212	95.011	33.139	78.2765	33.4859	78.2847	30.6176	59.7398	30.8661	60.1376
976.931	35.1783	95.3208	35.6055	95.7289	30.3578	80.0525	30.3316	80.2167	28.0444	61.0714	28.0896	61.7581
989.495	31.7929	96.8384	32.1726	97.6291	27.2915	82.8378	27.508	82.9442	25.1801	63.1114	25.29	63.7013
1015.75	25.6988	104.833	26.7837	104.713	21.2465	92.2116	22.0677	91.1909	18.0011	68.3972	19.0622	68.3235
1043.53	21.9547	117.133	22.4754	116.219	15.9136	106.216	16.5487	104.476	10.8152	72.0463	11.768	72.4916
1071.22	18.7461	133.214	19.0847	131.691	11.1358	128.848	11.4828	126.068	3.478578	60.6092	4.154320	65.9164
1098.82	16.4397	152.481	16.6672	151.101	8.197633	167.74	8.212253	164.58	4.666290	-66.2107	4.102031	-64.1866
1126.35	15.3211	174.687	15.495	173.384	9.150481	213.427	8.904858	211.904	11.389	-71.2534	10.9371	-71.2545
1153.82	15.7804	196.84	15.691	195.712	12.6487	241.441	12.4368	241.309	17.295	-68.2771	16.9582	-68.3643
1181.22	17.1402	215.939	17.0238	215.136	16.7852	257.115	16.5992	257.5	22.3777	-64.7771	22.0508	-64.8044
1208.57	19.1502	231.362	19.086	230.547	20.8708	267.217	20.6512	267.607	26.6485	-61.8872	26.3981	-61.7242
1235.88	21.7682	242.169	21.5576	242.292	24.669	-86.0462	24.487	-85.5864	30.4952	-59.7082	30.2823	-59.4154
1263.15	24.442	251.076	24.2885	251.082	28.4427	-81.4647	28.2229	-80.9657	34.2463	-58.4086	34.0335	-57.9396
1290.39	27.5566	257.854	27.2754	257.506	32.3599	-78.2407	32.0882	-78.0146	38.306	-57.4488	38.0333	-57.2324
1317.61	30.9513	261.751	30.6317	261.964	36.5781	-76.7312	36.4107	-76.4398	42.9312	-57.4673	42.7482	-57.0615
1344.81	35.0811	264.535	34.5772	264.694	41.8438	-76.234	41.6361	-76.0077	49.0139	-57.1219	48.7489	-56.8328
1372.01	39.7853	266.051	39.4486	265.815	48.2846	-76.7541	48.3539	-76.4192	56.8497	-55.4222	56.6029	-55.0156
1399.2	45.9176	265.108	45.7107	265.296	57.1624	-78.021	57.2511	-77.1082	66.7307	-46.9784	66.2557	-47.1133
1426.41	54.2292	261.684	53.9128	262.79	68.7382	-77.1674	68.7979	-76.4588	74.6077	-17.4502	74.674	-18.9127
1453.63	64.6838	256.409	64.4386	256.808	82.9163	-65.5044	82.278	-62.6822	73.1476	30.6195	73.2833	28.4661
1480.87	76.973	236.414	76.5948	239.035	81.5472	69.2762	81.6743	64.7524	64.4795	50.2778	64.7803	49.1928
1508.14	81.1906	152.388	82.1826	156.924	68.7493	78.1984	69.1388	76.5848	56.3132	56.0705	56.5744	55.1738
1535.45	71.1708	111.029	72.03	111.667	58.3701	78.6037	58.9321	77.3533	49.6889	57.6221	50.1403	56.8021
1562.81	60.7439	101.04	61.4745	101.306	51.2629	77.6843	51.2103	76.8353	45.0994	57.128	45.2524	57.1234
1590.21	52.1389	98.23	53.073	97.0642	45.3892	77.8812	45.4122	76.3078	41.1071	57.8553	41.4666	57.1456
1617.68	45.5212	95.4472	46.6562	95.0638	40.7531	76.0842	40.9641	76.1045	38.6273	57.5485	38.4173	57.2331
1645.22	41.4626	94.2787	41.7419	94.3147	37.1578	77.2932	37.4324	76.3176	35.7192	57.7673	35.8463	57.5107
1672.83	37.504	95.0764	37.9001	94.4402	34.8598	77.504	34.5164	76.9575	33.2367	57.9934	33.5784	58.0074
1686.66	36.1472	96.5077	36.2778	94.7689	31.8551	77.7831	33.2229	77.4324	31.654	58.8328	32.5193	58.3353